Folder: EquivalentCircuits.jl/examples/import_EIS_data/data

File: electrolyse_stack.DTA
EXPLAIN
TAG	PWR800_AEGALVEIS
TITLE	LABEL	PWR Galvanostatic EIS	Test Identifier
DATE	LABEL	25.11.2022	Date
TIME	LABEL	13:38:56	Time
NOTES	NOTES	1	Notes...

PSTAT	PSTAT	REF3000-36136	Potentiostat
CAPACITY	QUANT	1,00000E+000	Capacity (A-hr)
IDCREQ	QUANT	2,70000E+001	A Real Number
FREQINIT	QUANT	5,00000E+004	Initial Freq. (Hz)
FREQFINAL	QUANT	1,00000E-002	Final Freq. (Hz)
PTSPERDEC	QUANT	1,00000E+001	Points/decade
IACREQ	QUANT	2,00000E+000	AC Current (A rms)
SPEED	SELECTOR	2	Optimize for:
DRIFTCOR	SELECTOR	0	Drift Correction
ZGUESS	QUANT	2,50000E-002	Estimated Z (ohms)
CELLTYPE	SELECTOR	1	Cell Type
PSTATMODEL	IQUANT	6	Pstat Model
PSTATSECTION	LABEL	REF30K-36136	Pstat Section
PSTATSERIALNO	LABEL	36136	Pstat Serial Number
CTRLMODE	IQUANT	0	Control Mode
ELECTROMETER	IQUANT	0	RE=0 or CS=1
IESTAB	IQUANT	0	I/E Stability
CASPEED	IQUANT	4	Control Amp Speed
CONVENTION	IQUANT	1	Current Convention
ICHRANGE	IQUANT	2	Ich Range
ICHRANGEMODE	TOGGLE	F	Ich Auto Range
ICHOFFSETENABLE	TOGGLE	T	Ich Offset Enable
ICHOFFSET	QUANT	0	Ich Offset (V)
ICHFILTER	IQUANT	1	Ich Filter
VCHRANGE	IQUANT	3	Vch Range
VCHRANGEMODE	TOGGLE	F	Vch Auto Range
VCHOFFSETENABLE	TOGGLE	T	Vch Offset Enable
VCHOFFSET	QUANT	0	Vch Offset (V)
VCHFILTER	IQUANT	1	Vch Filter
ACHRANGE	IQUANT	2	Ach Range
ACHOFFSETENABLE	TOGGLE	T	Ach Offset Enable
ACHOFFSET	QUANT	0	Ach Offset (V)
ACHFILTER	IQUANT	1	Ach Filter
IERANGELOWERLIMIT	IQUANT	10	I/E Range Lower Limit
IERANGEMODE	TOGGLE	F	I/E AutoRange
IERANGE	IQUANT	11	I/E Range
POSFEEDENABLE	TOGGLE	F	Positive Feedback IR Comp
POSFEEDRESISTANCE	QUANT	0	Positive Feedback Resistance (ohm)
ACHSELECT	IQUANT	1	Ach Select
SENSECABLEID	IQUANT	14	Sense Cable ID
PWRCABLEID	IQUANT	8	Power Cable ID
DCCALDATE	LABEL	11/8/2022	DC Calibration Date
ACCALDATE	LABEL	11/8/2022	AC Calibration Date
THERMOSELECT	IQUANT	1	Thermo Select
FRAMEWORKVERSION	LABEL	7.9.0	Framework Version
INSTRUMENTVERSION	LABEL	4.60	Instrument Version
BOOSTERDCCALDATE	LABEL	11/8/2022	Booster DC Calibration Date
ZCURVE	TABLE
	Pt	Time	Freq	Zreal	Zimag	Zsig	Zmod	Zphz	Idc	Vdc	IERange
	#	s	Hz	ohm	ohm	V	ohm	°	A	V	#
	0	25	50039,06	0,0105365	0,0167496	1	0,0197881	57,8275	27,01814	9,198848	13
	1	43	39726,56	0,0102711	0,0134793	1	0,0169466	52,69302	27,01814	9,19904	13
	2	66	31570,31	0,0100499	0,0108749	1	0,0148076	47,25784	27,01815	9,19937	13
	3	82	25101,56	0,0098638	0,008793	1	0,0132141	41,71521	27,01823	9,199756	13
	4	89	19945,31	0,0096985	0,0071172	1	0,0120298	36,27297	27,01818	9,199657	13
	5	95	15820,31	0,00955	0,0057605	1	0,0111528	31,09812	27,0182	9,199949	13
	6	102	12585,94	0,0094182	0,0046771	1	0,0105156	26,40887	27,0182	9,200214	13
	7	108	10007,81	0,0093005	0,0037927	1	0,0100441	22,18563	27,01826	9,2003	13
	8	115	7945,313	0,0092001	0,0030646	1	0,0096971	18,42341	27,01819	9,200707	13
	9	121	6304,688	0,0091162	0,0024646	1	0,0094435	15,12861	27,01817	9,200628	13
	10	128	4989,17	0,0090502	0,0019667	1	0,0092614	12,26062	27,01809	9,200848	13
	11	134	3968,131	0,0090026	0,0015655	1	0,0091377	9,86488	27,01812	9,200987	13
	12	139	3164,063	0,008969	0,0012372	1	0,0090539	7,8537	27,01822	9,20108	13
	13	146	2507,813	0,008947	0,000959	1	0,0089982	6,117764	27,01826	9,201172	13
	14	151	1992,187	0,0089365	0,0007325	1	0,0089665	4,685758	27,01824	9,201389	13
	15	157	1585,478	0,0089356	0,0005455	1	0,0089523	3,493343	27,01803	9,201545	13
	16	164	1251,517	0,008939	0,0003842	1	0,0089473	2,46096	27,01787	9,201554	13
	17	170	997,834	0,0089471	0,0002563	1	0,0089507	1,640545	27,01824	9,201824	13
	18	174	788,762	0,00896	0,0001358	1	0,0089611	0,8680533	27,01789	9,201742	13
	19	177	626,547	0,0089722	3,403929E-005	1	0,0089723	0,2173704	27,01815	9,201779	13
	20	180	499,1319	0,0089902	-5,69429E-005	1	0,0089903	-0,362902	27,01709	9,201867	13
	21	183	398,4375	0,009011	-0,0001457	1	0,0090122	-0,9264258	27,01705	9,202044	13
	22	186	316,723	0,0090374	-0,0002368	1	0,0090405	-1,501201	27,01697	9,202465	13
	23	189	250,3034	0,0090681	-0,0003348	1	0,0090743	-2,114621	27,01695	9,202766	13
	24	192	198,9976	0,0091056	-0,0004403	1	0,0091162	-2,768622	27,01697	9,20272	13
	25	195	157,7524	0,0091546	-0,0005595	1	0,0091717	-3,497495	27,01695	9,2028	13
	26	198	125,2385	0,0092173	-0,0006932	1	0,0092434	-4,300667	27,01694	9,202738	13
	27	201	100,1603	0,0092987	-0,0008389	1	0,0093364	-5,155294	27,01704	9,203018	13
	28	204	79,18075	0,0094096	-0,0010095	1	0,0094636	-6,123682	27,01695	9,20327	13
	29	208	62,77902	0,0095501	-0,001195	1	0,0096246	-7,132213	27,01687	9,203244	13
	30	211	45,3629	0,0098154	-0,0014767	1	0,0099259	-8,555553	27,01693	9,203477	13
	31	214	38,42213	0,009988	-0,0016255	1	0,0101194	-9,243344	27,01705	9,203683	13
	32	218	31,25	0,0102407	-0,0018061	1	0,0103987	-10,00233	27,01715	9,204197	13
	33	222	25,02224	0,0105602	-0,0019873	1	0,0107456	-10,65776	27,01696	9,204208	13
	34	226	20,03205	0,0110841	-0,0020177	1	0,0112663	-10,31693	27,01807	9,205075	13
	35	229	15,625	0,0115051	-0,0021462	1	0,0117035	-10,56655	27,01802	9,205061	13
	36	231	12,46676	0,0119335	-0,0021844	1	0,0121317	-10,37284	27,01796	9,205039	13
	37	234	10,01603	0,0123202	-0,0021927	1	0,0125138	-10,09178	27,01785	9,205116	13
	38	237	7,918075	0,0127345	-0,0021029	1	0,0129069	-9,376896	27,01789	9,205161	13
	39	240	6,351626	0,0130639	-0,0020041	1	0,0132168	-8,721681	27,01786	9,205071	13
	40	244	5,008013	0,0133867	-0,0018511	1	0,013514	-7,872787	27,01791	9,205372	13
	41	249	3,972458	0,0136675	-0,001683	1	0,0137707	-7,019903	27,01785	9,205904	13
	42	253	3,158693	0,0138508	-0,0015577	1	0,0139381	-6,416596	27,01785	9,206366	13
	43	259	2,504006	0,0140382	-0,0014466	1	0,0141126	-5,883201	27,02923	9,206959	13
	44	266	1,991291	0,0142111	-0,0013533	1	0,0142754	-5,439936	27,02511	9,207276	13
	45	275	1,579346	0,01437	-0,0012889	1	0,0144276	-5,125343	27,02215	9,208107	13
	46	286	1,252003	0,0145152	-0,0012447	1	0,0145685	-4,901254	27,0205	9,208975	13
	47	298	0,999041	0,0146732	-0,0011867	1	0,0147212	-4,623842	27,02272	9,209885	13
	48	305	0,7923428	0,0148386	-0,0012056	1	0,0148875	-4,645022	27,02092	9,210341	13
	49	314	0,6271742	0,0149907	-0,0012281	1	0,015041	-4,683535	27,01979	9,21113	13
	50	324	0,4995205	0,0151659	-0,0012637	1	0,0152185	-4,763305	27,01908	9,211986	13
	51	336	0,3972458	0,0153473	-0,0012987	1	0,0154022	-4,836758	27,01867	9,211235	13
	52	351	0,316723	0,0155146	-0,0013438	1	0,0155727	-4,950483	27,0184	9,21003	13
	53	369	0,2495209	0,0156791	-0,0014015	1	0,0157416	-5,107734	27,01822	9,208717	13
	54	392	0,1983371	0,0158441	-0,0015	1	0,0159149	-5,408119	27,01807	9,207752	13
	55	419	0,1583615	0,0160452	-0,0015686	1	0,0161217	-5,58369	27,01799	9,20722	13
	56	453	0,1260081	0,0162576	-0,0016634	1	0,0163424	-5,841964	27,01789	9,207102	13
	57	492	0,1001603	0,0165038	-0,0017728	1	0,0165987	-6,131035	27,01791	9,207952	13
	58	540	0,0794492	0,0168584	-0,0018523	1	0,0169599	-6,270025	27,01793	9,209026	13
	59	593	0,063004	0,0170322	-0,0019903	1	0,0171481	-6,665086	27,01785	9,211378	13
	60	659	0,0500801	0,0174194	-0,0021074	1	0,0175464	-6,898268	27,01781	9,215837	13
	61	741	0,0397246	0,0179046	-0,0021776	1	0,0180366	-6,934523	27,01773	9,213467	13
	62	844	0,0315869	0,0181528	-0,0022322	1	0,0182895	-7,010443	27,01781	9,212	13
	63	973	0,0250668	0,0183555	-0,0022945	1	0,0184984	-7,125205	27,01785	9,216166	13
	64	1095	0,0199129	0,0192579	-0,002329	1	0,0193982	-6,895586	27,01784	9,217552	13
	65	1248	0,0158148	0,0192383	-0,0022494	1	0,0193694	-6,668912	27,01786	9,216788	13
	66	1440	0,0125603	0,0199015	-0,0021862	1	0,0200212	-6,268871	27,01772	9,220429	13
	67	1699	0,0099776	0,0202246	-0,0017875	1	0,0203035	-5,050738	27,01755	9,223494	13